{"resourceType":"Bundle","id":"NullPointer-bundle","type":"transaction","entry":[{"resource":{"resourceType":"Measure","id":"NullPointer","meta":{"profile":["http://hl7.org/fhir/us/cqfmeasures/StructureDefinition/computable-measure-cqfm"]},"contained":[{"resourceType":"Library","id":"effective-data-requirements","extension":[{"url":"http://hl7.org/fhir/us/cqfmeasures/StructureDefinition/cqfm-logicDefinition","extension":[{"url":"libraryName","valueString":"Test"},{"url":"name","valueString":"Numerator"},{"url":"statement","valueString":"define \"Numerator\":\n\ttrue"},{"url":"displaySequence","valueInteger":0}]},{"url":"http://hl7.org/fhir/us/cqfmeasures/StructureDefinition/cqfm-logicDefinition","extension":[{"url":"libraryName","valueString":"Test"},{"url":"name","valueString":"Denominator"},{"url":"statement","valueString":"define \"Denominator\":\n\ttrue"},{"url":"displaySequence","valueInteger":1}]},{"url":"http://hl7.org/fhir/us/cqfmeasures/StructureDefinition/cqfm-logicDefinition","extension":[{"url":"libraryName","valueString":"Test"},{"url":"name","valueString":"Initial Population"},{"url":"statement","valueString":"define \"Initial Population\":\n\ttrue"},{"url":"displaySequence","valueInteger":2}]},{"url":"http://hl7.org/fhir/us/cqfmeasures/StructureDefinition/cqfm-logicDefinition","extension":[{"url":"libraryName","valueString":"Test"},{"url":"name","valueString":"Denominator Exclusion"},{"url":"statement","valueString":"define \"Denominator Exclusion\":\n\tfalse"},{"url":"displaySequence","valueInteger":3}]}],"name":"EffectiveDataRequirements","status":"active","type":{"coding":[{"system":"http://terminology.hl7.org/CodeSystem/library-type","code":"module-definition"}]},"parameter":[{"name":"Numerator","use":"out","min":0,"max":"1","type":"boolean"},{"name":"Denominator","use":"out","min":0,"max":"1","type":"boolean"},{"name":"Initial Population","use":"out","min":0,"max":"1","type":"boolean"},{"name":"Denominator Exclusion","use":"out","min":0,"max":"1","type":"boolean"}]}],"extension":[{"url":"http://hl7.org/fhir/us/cqfmeasures/StructureDefinition/cqfm-softwaresystem","valueReference":{"reference":"Device/cqf-tooling"}},{"id":"effective-data-requirements","url":"http://hl7.org/fhir/us/cqfmeasures/StructureDefinition/cqfm-effectiveDataRequirements","valueReference":{"reference":"#effective-data-requirements"}}],"url":"http://example.com/Measure/NullPointer","name":"NullPointer","title":"Questionnaire Measure Example","status":"draft","experimental":true,"date":"2024-01-29T15:08:01-07:00","library":["http://example.com/Library/Test"],"type":[{"coding":[{"system":"http://terminology.hl7.org/CodeSystem/measure-type","code":"process"}]}],"improvementNotation":{"coding":[{"system":"http://terminology.hl7.org/CodeSystem/measure-improvement-notation","code":"increase"}]},"group":[{"extension":[{"url":"http://hl7.org/fhir/us/cqfmeasures/StructureDefinition/cqfm-scoring","valueCodeableConcept":{"coding":[{"system":"http://terminology.hl7.org/CodeSystem/measure-scoring","code":"proportion","display":"Proportion"}]}}],"population":[{"code":{"coding":[{"system":"http://terminology.hl7.org/CodeSystem/measure-population","code":"initial-population","display":"Initial Population"}]},"criteria":{"language":"text/cql.name","expression":"Initial Population"}},{"code":{"coding":[{"system":"http://terminology.hl7.org/CodeSystem/measure-population","code":"denominator","display":"Denominator"}]},"criteria":{"language":"text/cql.name","expression":"Denominator"}},{"code":{"coding":[{"system":"http://terminology.hl7.org/CodeSystem/measure-population","code":"denominator-exclusion","display":"Denominator Exclusion"}]},"criteria":{"language":"text/cql.name","expression":"Denominator Exclusion"}},{"code":{"coding":[{"system":"http://terminology.hl7.org/CodeSystem/measure-population","code":"numerator","display":"Numerator"}]},"criteria":{"language":"text/cql.name","expression":"Numerator"}}]},{"extension":[{"url":"http://hl7.org/fhir/us/cqfmeasures/StructureDefinition/cqfm-scoring","valueCodeableConcept":{"coding":[{"system":"http://terminology.hl7.org/CodeSystem/measure-scoring","code":"proportion","display":"Proportion"}]}}],"population":[{"code":{"coding":[{"system":"http://terminology.hl7.org/CodeSystem/measure-population","code":"initial-population","display":"Initial Population"}]},"criteria":{"language":"text/cql.name","expression":"Initial Population"}},{"code":{"coding":[{"system":"http://terminology.hl7.org/CodeSystem/measure-population","code":"denominator","display":"Denominator"}]},"criteria":{"language":"text/cql.name","expression":"Denominator"}},{"code":{"coding":[{"system":"http://terminology.hl7.org/CodeSystem/measure-population","code":"numerator","display":"Numerator"}]},"criteria":{"language":"text/cql.name","expression":"Numerator"}}]}]},"request":{"method":"PUT","url":"Measure/NullPointer"}},{"resource":{"resourceType":"Patient","id":"example2","meta":{"profile":["http://hl7.org/fhir/us/qicore/StructureDefinition/qicore-patient"]},"text":{"status":"generated","div":"<div xmlns=\"http://www.w3.org/1999/xhtml\"><p><b>Generated Narrative with Details</b></p><p><b>id</b>: example</p><p><b>meta</b>: </p><p><b>identifier</b>: Medical record number = 12345 (USUAL)</p><p><b>active</b>: true</p><p><b>name</b>: Peter James Chalmers (OFFICIAL), Jim Chalmers , Peter James Windsor (MAIDEN)</p><p><b>telecom</b>: ph: (03) 5555 6473(WORK), ph: (03) 3410 5613(MOBILE), ph: (03) 5555 8834(OLD)</p><p><b>gender</b>: male</p><p><b>birthDate</b>: 1974-12-25</p><p><b>deceased</b>: false</p><p><b>address</b>: 534 Erewhon St PeasantVille, Utah 84414(HOME)</p><h3>Contacts</h3><table class=\"grid\"><tr><td>-</td><td><b>Relationship</b></td><td><b>Name</b></td><td><b>Telecom</b></td><td><b>Address</b></td><td><b>Gender</b></td><td><b>Period</b></td></tr><tr><td>*</td><td>Next-of-Kin <span style=\"background: LightGoldenRodYellow\">(Details : {http://terminology.hl7.org/CodeSystem/v2-0131 code 'N' = 'Next-of-Kin)</span></td><td>Bénédicte du Marché </td><td>ph: +33 (237) 998327</td><td>534 Erewhon St PleasantVille VT 3999 (HOME)</td><td>female</td><td>Jan 1, 2012 12:00:00 AM --&gt; (ongoing)</td></tr></table><p><b>managingOrganization</b>: <a href=\"Organization-example.html\">Generated Summary: id: example; ??; active; <span title=\"Codes: {http://terminology.hl7.org/CodeSystem/organization-type team}\">Organizational team</span>; name: Health Level Seven International; ph: (+1) 734-677-7777, fax: (+1) 734-677-6622, hq@HL7.org</a></p></div>"},"extension":[{"url":"http://hl7.org/fhir/us/core/StructureDefinition/us-core-race","extension":[{"url":"ombCategory","valueCoding":{"system":"urn:oid:2.16.840.1.113883.6.238","code":"2106-3","display":"White"}},{"url":"ombCategory","valueCoding":{"system":"urn:oid:2.16.840.1.113883.6.238","code":"1002-5","display":"American Indian or Alaska Native"}},{"url":"ombCategory","valueCoding":{"system":"urn:oid:2.16.840.1.113883.6.238","code":"2028-9","display":"Asian"}},{"url":"detailed","valueCoding":{"system":"urn:oid:2.16.840.1.113883.6.238","code":"1586-7","display":"Shoshone"}},{"url":"detailed","valueCoding":{"system":"urn:oid:2.16.840.1.113883.6.238","code":"2036-2","display":"Filipino"}},{"url":"detailed","valueCoding":{"system":"urn:oid:2.16.840.1.113883.6.238","code":"1735-0","display":"Alaska Native"}},{"url":"text","valueString":"Mixed"}]},{"url":"http://hl7.org/fhir/us/core/StructureDefinition/us-core-ethnicity","extension":[{"url":"ombCategory","valueCoding":{"system":"urn:oid:2.16.840.1.113883.6.238","code":"2135-2","display":"Hispanic or Latino"}},{"url":"detailed","valueCoding":{"system":"urn:oid:2.16.840.1.113883.6.238","code":"2184-0","display":"Dominican"}},{"url":"detailed","valueCoding":{"system":"urn:oid:2.16.840.1.113883.6.238","code":"2148-5","display":"Mexican"}},{"url":"text","valueString":"Hispanic or Latino"}]},{"url":"http://hl7.org/fhir/us/core/StructureDefinition/us-core-birthsex","valueCode":"M"}],"identifier":[{"use":"usual","type":{"coding":[{"system":"http://terminology.hl7.org/CodeSystem/v2-0203","code":"MR"}]},"system":"urn:oid:1.2.36.146.595.217.0.1","value":"12345","period":{"start":"2001-05-06"},"assigner":{"display":"Acme Healthcare"}}],"active":true,"name":[{"use":"official","family":"Chalmers","given":["Peter","James"]},{"use":"usual","family":"Chalmers","given":["Jim"]},{"use":"maiden","family":"Windsor","given":["Peter","James"],"period":{"end":"2002"}}],"telecom":[{"system":"phone","value":"(03) 5555 6473","use":"work","rank":1},{"system":"phone","value":"(03) 3410 5613","use":"mobile","rank":2},{"system":"phone","value":"(03) 5555 8834","use":"old","period":{"end":"2014"}}],"gender":"male","birthDate":"1974-12-25","_birthDate":{"extension":[{"url":"http://hl7.org/fhir/StructureDefinition/patient-birthTime","valueDateTime":"1974-12-25T14:35:45-05:00"}]},"deceasedBoolean":false,"address":[{"use":"home","type":"both","text":"534 Erewhon St PeasantVille, Utah 84414","line":["534 Erewhon St"],"city":"PleasantVille","district":"Rainbow","state":"UT","postalCode":"84414","period":{"start":"1974-12-25"}}],"maritalStatus":{"coding":[{"system":"http://terminology.hl7.org/CodeSystem/v3-MaritalStatus","code":"M"}]},"contact":[{"relationship":[{"coding":[{"system":"http://terminology.hl7.org/CodeSystem/v2-0131","code":"N"}]}],"name":{"family":"du Marché","_family":{"extension":[{"url":"http://hl7.org/fhir/StructureDefinition/humanname-own-prefix","valueString":"VV"}]},"given":["Bénédicte"]},"telecom":[{"system":"phone","value":"+33 (237) 998327"}],"address":{"use":"home","type":"both","line":["534 Erewhon St"],"city":"PleasantVille","district":"Rainbow","state":"VT","postalCode":"3999","period":{"start":"1974-12-25"}},"gender":"female","period":{"start":"2012"}}],"managingOrganization":{"reference":"Organization/example"}},"request":{"method":"PUT","url":"Patient/example2"}},{"resource":{"resourceType":"Library","id":"Test","contained":[{"resourceType":"Parameters","id":"options","parameter":[{"name":"translatorVersion","valueString":"3.6.0"},{"name":"option","valueString":"EnableAnnotations"},{"name":"option","valueString":"EnableLocators"},{"name":"option","valueString":"DisableListDemotion"},{"name":"option","valueString":"DisableListPromotion"},{"name":"analyzeDataRequirements","valueBoolean":false},{"name":"collapseDataRequirements","valueBoolean":true},{"name":"compatibilityLevel","valueString":"1.5"},{"name":"enableCqlOnly","valueBoolean":false},{"name":"errorLevel","valueString":"Info"},{"name":"signatureLevel","valueString":"None"},{"name":"validateUnits","valueBoolean":true},{"name":"verifyOnly","valueBoolean":false}]}],"extension":[{"url":"http://hl7.org/fhir/us/cqfmeasures/StructureDefinition/cqfm-softwaresystem","valueReference":{"reference":"Device/cqf-tooling"}},{"url":"http://hl7.org/fhir/StructureDefinition/cqf-cqlOptions","valueReference":{"reference":"#options"}}],"url":"http://example.com/Library/Test","version":"1.0","name":"Test","title":"Test","status":"active","experimental":false,"type":{"coding":[{"system":"http://terminology.hl7.org/CodeSystem/library-type","code":"logic-library"}]},"relatedArtifact":[{"type":"depends-on","display":"FHIR model information","resource":"http://fhir.org/guides/cqf/common/Library/FHIR-ModelInfo|4.0.1"}],"parameter":[{"name":"Measurement Period","use":"in","min":0,"max":"1","type":"Period"},{"name":"Patient","use":"out","min":0,"max":"1","type":"Patient"},{"name":"Initial Population","use":"out","min":0,"max":"1","type":"boolean"},{"name":"Denominator","use":"out","min":0,"max":"1","type":"boolean"},{"name":"Denominator Exclusion","use":"out","min":0,"max":"1","type":"boolean"},{"name":"Numerator","use":"out","min":0,"max":"1","type":"boolean"}],"dataRequirement":[{"type":"Patient","profile":["http://hl7.org/fhir/StructureDefinition/Patient"]}],"content":[{"contentType":"text/cql","data":""}]},"request":{"method":"PUT","url":"Library/Test"}},{"resource":{"resourceType":"Patient","id":"example","meta":{"profile":["http://hl7.org/fhir/us/qicore/StructureDefinition/qicore-patient"]},"text":{"status":"generated","div":"<div xmlns=\"http://www.w3.org/1999/xhtml\"><p><b>Generated Narrative with Details</b></p><p><b>id</b>: example</p><p><b>meta</b>: </p><p><b>identifier</b>: Medical record number = 12345 (USUAL)</p><p><b>active</b>: true</p><p><b>name</b>: Peter James Chalmers (OFFICIAL), Jim Chalmers , Peter James Windsor (MAIDEN)</p><p><b>telecom</b>: ph: (03) 5555 6473(WORK), ph: (03) 3410 5613(MOBILE), ph: (03) 5555 8834(OLD)</p><p><b>gender</b>: male</p><p><b>birthDate</b>: 1974-12-25</p><p><b>deceased</b>: false</p><p><b>address</b>: 534 Erewhon St PeasantVille, Utah 84414(HOME)</p><h3>Contacts</h3><table class=\"grid\"><tr><td>-</td><td><b>Relationship</b></td><td><b>Name</b></td><td><b>Telecom</b></td><td><b>Address</b></td><td><b>Gender</b></td><td><b>Period</b></td></tr><tr><td>*</td><td>Next-of-Kin <span style=\"background: LightGoldenRodYellow\">(Details : {http://terminology.hl7.org/CodeSystem/v2-0131 code 'N' = 'Next-of-Kin)</span></td><td>Bénédicte du Marché </td><td>ph: +33 (237) 998327</td><td>534 Erewhon St PleasantVille VT 3999 (HOME)</td><td>female</td><td>Jan 1, 2012 12:00:00 AM --&gt; (ongoing)</td></tr></table><p><b>managingOrganization</b>: <a href=\"Organization-example.html\">Generated Summary: id: example; ??; active; <span title=\"Codes: {http://terminology.hl7.org/CodeSystem/organization-type team}\">Organizational team</span>; name: Health Level Seven International; ph: (+1) 734-677-7777, fax: (+1) 734-677-6622, hq@HL7.org</a></p></div>"},"extension":[{"url":"http://hl7.org/fhir/us/core/StructureDefinition/us-core-race","extension":[{"url":"ombCategory","valueCoding":{"system":"urn:oid:2.16.840.1.113883.6.238","code":"2106-3","display":"White"}},{"url":"ombCategory","valueCoding":{"system":"urn:oid:2.16.840.1.113883.6.238","code":"1002-5","display":"American Indian or Alaska Native"}},{"url":"ombCategory","valueCoding":{"system":"urn:oid:2.16.840.1.113883.6.238","code":"2028-9","display":"Asian"}},{"url":"detailed","valueCoding":{"system":"urn:oid:2.16.840.1.113883.6.238","code":"1586-7","display":"Shoshone"}},{"url":"detailed","valueCoding":{"system":"urn:oid:2.16.840.1.113883.6.238","code":"2036-2","display":"Filipino"}},{"url":"detailed","valueCoding":{"system":"urn:oid:2.16.840.1.113883.6.238","code":"1735-0","display":"Alaska Native"}},{"url":"text","valueString":"Mixed"}]},{"url":"http://hl7.org/fhir/us/core/StructureDefinition/us-core-ethnicity","extension":[{"url":"ombCategory","valueCoding":{"system":"urn:oid:2.16.840.1.113883.6.238","code":"2135-2","display":"Hispanic or Latino"}},{"url":"detailed","valueCoding":{"system":"urn:oid:2.16.840.1.113883.6.238","code":"2184-0","display":"Dominican"}},{"url":"detailed","valueCoding":{"system":"urn:oid:2.16.840.1.113883.6.238","code":"2148-5","display":"Mexican"}},{"url":"text","valueString":"Hispanic or Latino"}]},{"url":"http://hl7.org/fhir/us/core/StructureDefinition/us-core-birthsex","valueCode":"M"}],"identifier":[{"use":"usual","type":{"coding":[{"system":"http://terminology.hl7.org/CodeSystem/v2-0203","code":"MR"}]},"system":"urn:oid:1.2.36.146.595.217.0.1","value":"12345","period":{"start":"2001-05-06"},"assigner":{"display":"Acme Healthcare"}}],"active":true,"name":[{"use":"official","family":"Chalmers","given":["Peter","James"]},{"use":"usual","family":"Chalmers","given":["Jim"]},{"use":"maiden","family":"Windsor","given":["Peter","James"],"period":{"end":"2002"}}],"telecom":[{"system":"phone","value":"(03) 5555 6473","use":"work","rank":1},{"system":"phone","value":"(03) 3410 5613","use":"mobile","rank":2},{"system":"phone","value":"(03) 5555 8834","use":"old","period":{"end":"2014"}}],"gender":"male","birthDate":"1974-12-25","_birthDate":{"extension":[{"url":"http://hl7.org/fhir/StructureDefinition/patient-birthTime","valueDateTime":"1974-12-25T14:35:45-05:00"}]},"deceasedBoolean":false,"address":[{"use":"home","type":"both","text":"534 Erewhon St PeasantVille, Utah 84414","line":["534 Erewhon St"],"city":"PleasantVille","district":"Rainbow","state":"UT","postalCode":"84414","period":{"start":"1974-12-25"}}],"maritalStatus":{"coding":[{"system":"http://terminology.hl7.org/CodeSystem/v3-MaritalStatus","code":"M"}]},"contact":[{"relationship":[{"coding":[{"system":"http://terminology.hl7.org/CodeSystem/v2-0131","code":"N"}]}],"name":{"family":"du Marché","_family":{"extension":[{"url":"http://hl7.org/fhir/StructureDefinition/humanname-own-prefix","valueString":"VV"}]},"given":["Bénédicte"]},"telecom":[{"system":"phone","value":"+33 (237) 998327"}],"address":{"use":"home","type":"both","line":["534 Erewhon St"],"city":"PleasantVille","district":"Rainbow","state":"VT","postalCode":"3999","period":{"start":"1974-12-25"}},"gender":"female","period":{"start":"2012"}}],"managingOrganization":{"reference":"Organization/example"}},"request":{"method":"PUT","url":"Patient/example"}}]}